Wavelength(nm),Intensities
300.0000024,1291.4
301.0000024,1300.8
302.0000024,1303.8
303.0000024,1320.8
304.0000024,1325.8
305.0000024,1311.0
306.0000024,1317.8
307.0000024,1324.4
308.0000024,1301.2
309.0000024,1313.8
310.0000024,1335.0
311.0000024,1331.0
312.0000024,1322.6
313.0000024,1302.6
314.0000024,1311.6
315.0000024,1304.4
316.0000024,1318.6
317.0000024,1315.4
318.0000024,1298.2
319.0000024,1323.4
320.0000024,1330.4
321.0000024,1297.4
322.0000024,1306.6
323.0000024,1321.8
324.0000024,1314.8
325.0000024,1310.2
326.0000024,1309.2
327.0000024,1315.4
328.0000024,1306.4
329.0000024,1304.0
330.0000024,1295.4
331.0000024,1323.2
332.0000024,1313.4
333.0000024,1328.2
334.0000024,1332.8
335.0000024,1324.8
336.0000024,1334.2
337.0000024,1339.0
338.0000024,1334.0
339.0000024,1340.2
340.0000024,1346.0
341.0000024,1346.4
342.0000024,1358.0
343.0000024,1360.6
344.0000024,1367.2
345.0000024,1383.2
346.0000024,1357.4
347.0000024,1360.2
348.0000024,1369.4
349.0000024,1365.6
350.0000024,1363.2
351.0000024,1374.6
352.0000024,1398.2
353.0000024,1360.4
354.0000024,1382.6
355.0000024,1389.4
356.0000024,1388.6
357.0000024,1384.6
358.0000024,1382.0
359.0000024,1361.8
360.0000024,1383.2
361.0000024,1377.4
362.0000024,1375.0
363.0000024,1396.6
364.0000024,1382.4
365.0000024,1395.0
366.0000024,1400.8
367.0000024,1408.6
368.0000024,1402.4
369.0000024,1404.0
370.0000024,1411.2
371.0000024,1398.8
372.0000024,1390.2
373.0000024,1412.6
374.0000024,1416.4
375.0000024,1411.2
376.0000024,1422.4
377.0000024,1438.2
378.0000024,1432.8
379.0000024,1411.8
380.0000024,1441.2
381.0000024,1437.4
382.0000024,1457.6
383.0000024,1452.4
384.0000024,1446.6
385.0000024,1476.4
386.0000024,1492.6
387.0000024,1478.8
388.0000024,1502.4
389.0000024,1498.2
390.0000024,1517.0
391.0000024,1528.4
392.0000024,1507.2
393.0000024,1534.6
394.0000024,1550.0
395.0000024,1574.2
396.0000024,1543.0
397.0000024,1560.2
398.0000024,1543.8
399.0000024,1585.6
400.0000024,1565.4
401.0000024,1590.6
402.0000024,1572.0
403.0000024,1574.8
404.0000024,1535.4
405.0000024,1573.8
406.0000024,1545.0
407.0000024,1586.6
408.0000024,1606.6
409.0000024,1593.8
410.0000024,1411.6
411.0000024,1387.4
412.0000024,1415.8
413.0000024,1431.4
414.0000024,1505.2
415.0000024,1560.6
416.0000024,1562.6
417.0000024,1570.2
418.0000024,1655.6
419.0000024,1673.4
420.0000024,1684.6
421.0000024,1684.6
422.0000024,1711.4
423.0000024,1719.2
424.0000024,1696.0
425.0000024,1687.8
426.0000024,1678.6
427.0000024,1681.0
428.0000024,1666.6
429.0000024,1675.2
430.0000024,1650.6
431.0000024,1671.4
432.0000024,1661.6
433.0000024,1623.6
434.0000024,1625.0
435.0000024,1611.6
436.0000024,1661.6
437.0000024,1619.8
438.0000024,1604.8
439.0000024,1606.0
440.0000024,1609.4
441.0000024,1571.6
442.0000024,1586.4
443.0000024,1563.0
444.0000024,1575.8
445.0000024,1567.2
446.0000024,1561.4
447.0000024,1557.4
448.0000024,1566.4
449.0000024,1597.4
450.0000024,1557.0
451.0000024,1381.0
452.0000024,1370.8
453.0000024,1428.2
454.0000024,1431.4
455.0000024,1473.4
456.0000024,1529.2
457.0000024,1579.4
458.0000024,1603.6
459.0000024,1655.4
460.0000024,1641.0
461.0000024,1688.6
462.0000024,1670.2
463.0000024,1683.4
464.0000024,1694.6
465.0000024,1694.8
466.0000024,1691.8
467.0000024,1694.4
468.0000024,1698.0
469.0000024,1729.6
470.0000024,1699.8
471.0000024,1717.4
472.0000024,1736.0
473.0000024,1716.4
474.0000024,1709.6
475.0000024,1738.4
476.0000024,1751.4
477.0000024,1750.2
478.0000024,1785.0
479.0000024,1751.8
480.0000024,1769.6
481.0000024,1748.8
482.0000024,1757.2
483.0000024,1774.0
484.0000024,1776.6
485.0000024,1758.4
486.0000024,1784.0
487.0000024,1787.4
488.0000024,1812.6
489.0000024,1799.2
490.0000024,1801.8
491.0000024,1802.8
492.0000024,1811.8
493.0000024,1831.0
494.0000024,1873.4
495.0000024,1872.8
496.0000024,1872.2
497.0000024,1883.4
498.0000024,1912.8
499.0000024,1913.6
500.0000024,1897.6
501.0000024,1909.4
502.0000024,1910.2
503.0000024,1891.2
504.0000024,1928.8
505.0000024,1891.2
506.0000024,1876.2
507.0000024,1885.8
508.0000024,1845.4
509.0000024,1826.4
510.0000024,1838.0
511.0000024,1827.4
512.0000024000001,1839.2
513.0000024000001,1867.8
514.0000024000001,1839.0
515.0000024000001,1864.4
516.0000024000001,1900.4
517.0000024000001,1882.4
518.0000024000001,1970.8
519.0000024000001,1920.0
520.0000024000001,1897.0
521.0000024000001,1888.8
522.0000024000001,1945.4
523.0000024000001,1894.0
524.0000024000001,1864.2
525.0000024000001,1870.2
526.0000024000001,1839.0
527.0000024000001,1825.4
528.0000024000001,1841.4
529.0000024000001,1852.8
530.0000024000001,1948.0
531.0000024000001,1841.6
532.0000024000001,1861.6
533.0000024000001,1920.2
534.0000024000001,1873.4
535.0000024000001,1855.4
536.0000024000001,1999.2
537.0000024000001,1900.0
538.0000024000001,1942.0
539.0000024000001,1912.6
540.0000024000001,1946.6
541.0000024000001,1909.8
542.0000024000001,1918.6
543.0000024000001,1921.4
544.0000024000001,1933.4
545.0000024000001,1964.6
546.0000024000001,2229.8
547.0000024000001,2000.2
548.0000024000001,2021.0
549.0000024000001,1980.4
550.0000024000001,1988.8
551.0000024000001,1952.8
552.0000024000001,1964.6
553.0000024000001,1978.8
554.0000024000001,1981.6
555.0000024000001,1991.0
556.0000024000001,2010.6
557.0000024000001,2002.0
558.0000024000001,1984.8
559.0000024000001,1985.8
560.0000024000001,1976.6
561.0000024000001,1976.4
562.0000024000001,1991.8
563.0000024000001,1972.2
564.0000024000001,1969.4
565.0000024000001,1985.4
566.0000024000001,1969.8
567.0000024000001,1973.8
568.0000024000001,2015.6
569.0000024000001,2102.4
570.0000024000001,1957.8
571.0000024000001,1939.0
572.0000024000001,1942.4
573.0000024000001,1975.0
574.0000024000001,1971.0
575.0000024000001,1983.0
576.0000024000001,1955.8
577.0000024000001,1966.2
578.0000024000001,1966.6
579.0000024000001,1961.8
580.0000024000001,1966.2
581.0000024000001,1968.4
582.0000024000001,1984.8
583.0000024000001,1976.6
584.0000024000001,1973.8
585.0000024000001,1982.6
586.0000024000001,2155.2
587.0000024000001,2034.6
588.0000024000001,2051.0
589.0000024000001,2087.4
590.0000024000001,2000.6
591.0000024000001,1978.8
592.0000024000001,2179.8
593.0000024000001,2049.2
594.0000024000001,1978.8
595.0000024000001,2024.2
596.0000024000001,2009.8
597.0000024000001,2193.6
598.0000024000001,2304.4
599.0000024000001,2036.8
600.0000024000001,2065.2
601.0000024000001,1996.4
602.0000024000001,2013.0
603.0000024000001,2003.0
604.0000024000001,2020.2
605.0000024000001,2033.4
606.0000024000001,2033.4
607.0000024000001,2017.0
608.0000024000001,2196.0
609.0000024000001,2048.2
610.0000024000001,2038.6
611.0000024000001,2047.2
612.0000024000001,2057.6
613.0000024000001,2171.0
614.0000024000001,2045.8
615.0000024000001,2056.4
616.0000024000001,2094.0
617.0000024000001,2033.8
618.0000024000001,2103.6
619.0000024000001,2054.2
620.0000024000001,2036.2
621.0000024000001,2041.8
622.0000024000001,2023.0
623.0000024000001,2081.8
624.0000024000001,2031.2
625.0000024000001,2063.0
626.0000024000001,2035.0
627.0000024000001,2073.8
628.0000024000001,2032.6
629.0000024000001,2017.0
630.0000024000001,2114.4
631.0000024000001,2040.4
632.0000024000001,2010.2
633.0000024000001,2022.4
634.0000024000001,2003.6
635.0000024000001,2062.4
636.0000024000001,2021.6
637.0000024000001,2197.4
638.0000024000001,2016.2
639.0000024000001,2003.4
640.0000024000001,2022.6
641.0000024000001,2004.4
642.0000024000001,1989.4
643.0000024000001,1990.6
644.0000024000001,1967.0
645.0000024000001,1958.2
646.0000024000001,1939.2
647.0000024000001,2072.0
648.0000024000001,1935.0
649.0000024000001,1949.8
650.0000024000001,1930.0
651.0000024000001,1974.2
652.0000024000001,1911.4
653.0000024000001,1918.4
654.0000024000001,1924.2
655.0000024000001,2100.6
656.0000024000001,1976.0
657.0000024000001,1957.0
658.0000024000001,1957.0
659.0000024000001,1958.4
660.0000024000001,2468.8
661.0000024000001,1981.4
662.0000024000001,1960.6
663.0000024000001,2009.8
664.0000024000001,1906.8
665.0000024000001,1897.8
666.0000024000001,1899.2
667.0000024000001,1904.8
668.0000024000001,1981.8
669.0000024000001,1976.8
670.0000024000001,1953.6
671.0000024000001,1910.4
672.0000024000001,1928.6
673.0000024000001,1900.8
674.0000024000001,2047.0
675.0000024000001,1859.4
676.0000024000001,1876.2
677.0000024000001,1862.0
678.0000024000001,1907.4
679.0000024000001,1912.4
680.0000024000001,1867.0
681.0000024000001,1886.4
682.0000024000001,1897.6
683.0000024000001,1876.4
684.0000024000001,1886.0
685.0000024000001,1855.6
686.0000024000001,1872.6
687.0000024000001,1851.4
688.0000024000001,1879.6
689.0000024000001,1858.2
690.0000024000001,1871.2
691.0000024000001,1858.6
692.0000024000001,1808.4
693.0000024000001,1813.4
694.0000024000001,1946.6
695.0000024000001,2066.0
696.0000024000001,1855.2
697.0000024000001,1827.8
698.0000024000001,1800.8
699.0000024000001,1784.8
700.0000024000001,1772.2
701.0000024000001,1744.0
702.0000024000001,1774.0
703.0000024000001,1739.0
704.0000024000001,1736.4
705.0000024000001,1749.2
706.0000024000001,1730.6
707.0000024000001,1719.4
708.0000024000001,1731.4
709.0000024000001,1734.0
710.0000024000001,1728.0
711.0000024000001,1709.6
712.0000024000001,1731.2
713.0000024000001,1702.4
714.0000024000001,1708.8
715.0000024000001,1695.0
716.0000024000001,1676.2
717.0000024000001,1694.0
718.0000024000001,1688.2
719.0000024000001,1704.0
720.0000024000001,1706.0
721.0000024000001,1703.6
722.0000024000001,1678.0
723.0000024000001,1656.2
724.0000024000001,1692.4
725.0000024000001,1680.0
726.0000024000001,1681.0
727.0000024000001,1685.4
728.0000024000001,1674.6
729.0000024000001,1669.0
730.0000024000001,1663.6
731.0000024000001,1653.2
732.0000024000001,1650.0
733.0000024000001,1640.4
734.0000024000001,1656.6
735.0000024000001,1654.6
736.0000024000001,1652.6
737.0000024000001,1626.8
738.0000024000001,1630.4
739.0000024000001,1640.2
740.0000024000001,1629.0
741.0000024000001,1632.0
742.0000024000001,1622.8
743.0000024000001,1639.2
744.0000024000001,1647.4
745.0000024000001,1633.6
746.0000024000001,1634.4
747.0000024000001,1624.4
748.0000024000001,1632.4
749.0000024000001,1657.2
750.0000024000001,1644.2
751.0000024000001,1613.8
752.0000024000001,1613.8
753.0000024000001,1613.0
754.0000024000001,1618.8
755.0000024000001,1880.8
756.0000024000001,1751.8
757.0000024000001,1716.4
758.0000024000001,1683.4
759.0000024000001,1738.8
760.0000024000001,1744.4
761.0000024000001,1619.0
762.0000024000001,1633.8
763.0000024000001,1675.2
764.0000024000001,1644.2
765.0000024000001,1595.4
766.0000024000001,1662.6
767.0000024000001,1603.8
768.0000024000001,1606.4
769.0000024000001,1756.0
770.0000024000001,1612.0
771.0000024000001,1705.4
772.0000024000001,1660.0
773.0000024000001,1626.4
774.0000024000001,1599.4
775.0000024000001,1618.0
776.0000024000001,1591.8
777.0000024000001,1578.2
778.0000024000001,1559.8
779.0000024000001,1546.2
780.0000024000001,1550.6
781.0000024000001,1618.2
782.0000024000001,1685.8
783.0000024000001,1597.6
784.0000024000001,1553.8
785.0000024000001,1530.4
786.0000024000001,1545.0
787.0000024000001,1541.4
788.0000024000001,1548.6
789.0000024000001,1531.6
790.0000024000001,1517.4
791.0000024000001,1514.6
792.0000024000001,1510.0
793.0000024000001,1509.8
794.0000024000001,1564.4
795.0000024000001,1521.0
796.0000024000001,1515.4
797.0000024000001,1615.0
798.0000024000001,1509.4
799.0000024000001,1502.8
800.0000024000001,1507.2
801.0000024000001,1529.4
802.0000024000001,1524.4
803.0000024000001,1502.0
804.0000024000001,1511.2
805.0000024000001,1526.4
806.0000024000001,1498.4
807.0000024000001,1519.4
808.0000024000001,1501.2
809.0000024000001,1640.4
810.0000024000001,1516.8
811.0000024000001,1507.2
812.0000024000001,1500.0
813.0000024000001,1533.4
814.0000024000001,1496.6
815.0000024000001,1483.8
816.0000024000001,1532.4
817.0000024000001,1487.8
818.0000024000001,1492.6
819.0000024000001,1493.0
820.0000024000001,1476.2
821.0000024000001,1476.8
822.0000024000001,1459.4
823.0000024000001,1475.4
824.0000024000001,1477.2
825.0000024000001,1484.2
826.0000024000001,1478.6
827.0000024000001,1476.6
828.0000024000001,1464.0
829.0000024000001,1478.0
830.0000024000001,1478.6
831.0000024000001,1480.2
832.0000024000001,1476.6
833.0000024000001,1464.2
834.0000024000001,1468.0
835.0000024000001,1475.0
836.0000024000001,1463.4
837.0000024000001,1470.4
838.0000024000001,1462.4
839.0000024000001,1453.2
840.0000024000001,1462.6
841.0000024000001,1462.4
842.0000024000001,1450.4
843.0000024000001,1480.4
844.0000024000001,1488.2
845.0000024000001,1478.2
846.0000024000001,1497.6
847.0000024000001,1475.4
848.0000024000001,1470.4
849.0000024000001,1483.4
850.0000024000001,1507.0
851.0000024000001,1552.8
852.0000024000001,1494.8
853.0000024000001,1495.2
854.0000024000001,1481.8
855.0000024000001,1485.6
856.0000024000001,1480.4
857.0000024000001,1489.4
858.0000024000001,1490.2
859.0000024000001,1498.6
860.0000024000001,1468.0
861.0000024000001,1483.2
862.0000024000001,1469.2
863.0000024000001,1454.6
864.0000024000001,1485.6
865.0000024000001,1477.2
866.0000024000001,1594.0
867.0000024000001,1500.8
868.0000024000001,1496.4
869.0000024000001,1468.6
